#== Filter Data - Lambda 9 Spectrophotometer ==
#  Kitt Peak National Observatory - NOAO
#------------------------------------------------
#Filter: GjNa 1NM/120NMPERMIN/0.5S 3000-12000A
#Date: 09/28/04 Time: 14:49:19 Operator: HS
#cwl= 5893.18A fwhm= 101.92A Tmax= 81.09% at 5880.00A
#Tcutoff= 2.00 % Slitsize = 10 A
#fwhm spans 5842.22A to 5944.15A
#90% spans 5853.43A to 5921.79A
#bw90 is 0.671; Tmin90/Tmax is 0.900
#No data smoothing
#
#Npts= 901 Disp= 10.00A/Interval
#*****
  3000.00 -0.005
  3010.00 -0.005
  3020.00 -0.010
  3030.00 -0.005
  3040.00 -0.005
  3050.00 -0.005
  3060.00 -0.005
  3070.00 -0.005
  3080.00 -0.005
  3090.00 -0.005
  3100.00 -0.005
  3110.00 -0.005
  3120.00 -0.005
  3130.00 -0.005
  3140.00 -0.005
  3150.00 -0.005
  3160.00 -0.005
  3170.00 -0.005
  3180.00 -0.015
  3190.00 -0.025
  3200.00 -0.005
  3210.00 -0.005
  3220.00 -0.005
  3230.00 -0.005
  3240.00 -0.005
  3250.00 -0.005
  3260.00 -0.005
  3270.00 -0.005
  3280.00 -0.005
  3290.00 -0.005
  3300.00 -0.005
  3310.00 -0.005
  3320.00 -0.010
  3330.00 -0.005
  3340.00 -0.005
  3350.00 -0.005
  3360.00 -0.005
  3370.00 -0.005
  3380.00 -0.005
  3390.00 -0.005
  3400.00 -0.005
  3410.00 -0.005
  3420.00 -0.005
  3430.00 -0.005
  3440.00 -0.005
  3450.00 -0.005
  3460.00 -0.005
  3470.00 -0.005
  3480.00 -0.005
  3490.00 -0.005
  3500.00 -0.005
  3510.00 -0.005
  3520.00 -0.005
  3530.00 -0.005
  3540.00 -0.005
  3550.00 -0.005
  3560.00 -0.005
  3570.00 -0.005
  3580.00 -0.005
  3590.00 -0.005
  3600.00 -0.005
  3610.00 -0.005
  3620.00 -0.005
  3630.00 -0.005
  3640.00 -0.005
  3650.00 -0.005
  3660.00 -0.005
  3670.00 -0.005
  3680.00 -0.005
  3690.00 -0.005
  3700.00 -0.005
  3710.00 -0.005
  3720.00 -0.005
  3730.00 0.000
  3740.00 -0.005
  3750.00 -0.005
  3760.00 -0.005
  3770.00 -0.005
  3780.00 -0.015
  3790.00 -0.005
  3800.00 -0.005
  3810.00 -0.005
  3820.00 -0.005
  3830.00 -0.005
  3840.00 -0.005
  3850.00 -0.005
  3860.00 -0.005
  3870.00 -0.005
  3880.00 -0.005
  3890.00 -0.005
  3900.00 -0.005
  3910.00 -0.005
  3920.00 -0.005
  3930.00 -0.005
  3940.00 -0.005
  3950.00 -0.005
  3960.00 -0.005
  3970.00 -0.005
  3980.00 -0.005
  3990.00 -0.005
  4000.00 -0.005
  4010.00 -0.005
  4020.00 -0.005
  4030.00 -0.005
  4040.00 -0.005
  4050.00 -0.005
  4060.00 -0.005
  4070.00 -0.005
  4080.00 -0.005
  4090.00 -0.005
  4100.00 -0.005
  4110.00 -0.005
  4120.00 -0.005
  4130.00 -0.005
  4140.00 -0.005
  4150.00 -0.005
  4160.00 -0.005
  4170.00 -0.005
  4180.00 -0.005
  4190.00 -0.005
  4200.00 -0.005
  4210.00 -0.005
  4220.00 -0.005
  4230.00 -0.005
  4240.00 -0.005
  4250.00 -0.005
  4260.00 -0.005
  4270.00 -0.005
  4280.00 -0.005
  4290.00 -0.005
  4300.00 -0.005
  4310.00 -0.005
  4320.00 -0.005
  4330.00 -0.005
  4340.00 -0.005
  4350.00 -0.005
  4360.00 -0.005
  4370.00 -0.005
  4380.00 -0.005
  4390.00 -0.005
  4400.00 -0.005
  4410.00 -0.005
  4420.00 -0.005
  4430.00 -0.005
  4440.00 -0.005
  4450.00 -0.005
  4460.00 -0.005
  4470.00 -0.005
  4480.00 -0.005
  4490.00 -0.005
  4500.00 -0.005
  4510.00 -0.005
  4520.00 -0.005
  4530.00 -0.005
  4540.00 -0.005
  4550.00 -0.005
  4560.00 -0.005
  4570.00 -0.005
  4580.00 -0.005
  4590.00 -0.005
  4600.00 -0.005
  4610.00 -0.005
  4620.00 -0.005
  4630.00 -0.005
  4640.00 -0.005
  4650.00 -0.005
  4660.00 -0.005
  4670.00 -0.005
  4680.00 -0.005
  4690.00 -0.005
  4700.00 -0.005
  4710.00 -0.005
  4720.00 -0.005
  4730.00 -0.005
  4740.00 -0.005
  4750.00 -0.005
  4760.00 -0.005
  4770.00 -0.005
  4780.00 -0.005
  4790.00 -0.005
  4800.00 -0.005
  4810.00 -0.005
  4820.00 -0.010
  4830.00 -0.005
  4840.00 -0.005
  4850.00 -0.005
  4860.00 -0.010
  4870.00 -0.010
  4880.00 -0.005
  4890.00 -0.005
  4900.00 -0.005
  4910.00 -0.005
  4920.00 -0.005
  4930.00 -0.005
  4940.00 -0.005
  4950.00 -0.005
  4960.00 -0.005
  4970.00 -0.005
  4980.00 -0.005
  4990.00 -0.005
  5000.00 -0.005
  5010.00 -0.005
  5020.00 -0.005
  5030.00 -0.005
  5040.00 -0.005
  5050.00 -0.005
  5060.00 -0.005
  5070.00 -0.005
  5080.00 -0.005
  5090.00 -0.005
  5100.00 -0.005
  5110.00 -0.005
  5120.00 -0.005
  5130.00 -0.005
  5140.00 -0.005
  5150.00 -0.005
  5160.00 -0.005
  5170.00 -0.005
  5180.00 -0.005
  5190.00 -0.005
  5200.00 -0.005
  5210.00 -0.005
  5220.00 -0.005
  5230.00 -0.005
  5240.00 -0.005
  5250.00 -0.005
  5260.00 -0.005
  5270.00 -0.005
  5280.00 -0.005
  5290.00 -0.005
  5300.00 -0.005
  5310.00 -0.005
  5320.00 -0.005
  5330.00 -0.005
  5340.00 -0.005
  5350.00 -0.005
  5360.00 -0.005
  5370.00 -0.005
  5380.00 -0.005
  5390.00 -0.005
  5400.00 -0.005
  5410.00 -0.005
  5420.00 -0.005
  5430.00 -0.005
  5440.00 -0.005
  5450.00 -0.005
  5460.00 -0.005
  5470.00 -0.005
  5480.00 -0.005
  5490.00 -0.005
  5500.00 -0.005
  5510.00 -0.005
  5520.00 -0.005
  5530.00 -0.005
  5540.00 -0.005
  5550.00 -0.005
  5560.00 -0.005
  5570.00 -0.005
  5580.00 -0.005
  5590.00 -0.005
  5600.00 0.000
  5610.00 -0.010
  5620.00 -0.040
  5630.00 -0.005
  5640.00 -0.005
  5650.00 -0.005
  5660.00 0.000
  5670.00 0.000
  5680.00 0.000
  5690.00 0.000
  5700.00 0.005
  5710.00 0.005
  5720.00 0.010
  5730.00 0.015
  5740.00 0.025
  5750.00 0.040
  5760.00 0.075
  5770.00 0.150
  5780.00 0.275
  5790.00 0.470
  5800.00 0.790
  5810.00 1.450
  5820.00 3.270
  5830.00 9.655
  5840.00 32.315
  5850.00 69.355
  5860.00 79.945
  5870.00 79.945
  5880.00 81.095
  5890.00 79.660
  5900.00 79.400
  5910.00 78.510
  5920.00 73.590
  5930.00 70.205
  5940.00 54.230
  5950.00 21.235
  5960.00 5.765
  5970.00 1.925
  5980.00 0.850
  5990.00 0.465
  6000.00 0.305
  6010.00 0.230
  6020.00 0.175
  6030.00 0.130
  6040.00 0.080
  6050.00 0.050
  6060.00 0.025
  6070.00 0.015
  6080.00 0.005
  6090.00 0.000
  6100.00 0.000
  6110.00 0.000
  6120.00 0.000
  6130.00 -0.005
  6140.00 0.000
  6150.00 0.000
  6160.00 0.000
  6170.00 0.000
  6180.00 0.000
  6190.00 0.000
  6200.00 0.000
  6210.00 -0.005
  6220.00 -0.005
  6230.00 -0.005
  6240.00 -0.005
  6250.00 -0.005
  6260.00 -0.005
  6270.00 -0.005
  6280.00 -0.005
  6290.00 -0.005
  6300.00 -0.005
  6310.00 -0.005
  6320.00 -0.005
  6330.00 -0.005
  6340.00 -0.005
  6350.00 -0.005
  6360.00 -0.005
  6370.00 -0.005
  6380.00 -0.005
  6390.00 -0.005
  6400.00 -0.005
  6410.00 -0.005
  6420.00 -0.005
  6430.00 -0.005
  6440.00 -0.005
  6450.00 -0.005
  6460.00 -0.005
  6470.00 -0.005
  6480.00 -0.005
  6490.00 -0.005
  6500.00 -0.005
  6510.00 -0.005
  6520.00 -0.005
  6530.00 -0.005
  6540.00 -0.005
  6550.00 -0.005
  6560.00 -0.005
  6570.00 -0.005
  6580.00 -0.005
  6590.00 -0.005
  6600.00 -0.005
  6610.00 -0.005
  6620.00 -0.005
  6630.00 -0.005
  6640.00 -0.005
  6650.00 -0.005
  6660.00 -0.005
  6670.00 -0.005
  6680.00 -0.005
  6690.00 -0.005
  6700.00 -0.005
  6710.00 -0.005
  6720.00 -0.005
  6730.00 -0.005
  6740.00 -0.005
  6750.00 -0.005
  6760.00 -0.005
  6770.00 -0.005
  6780.00 -0.005
  6790.00 -0.005
  6800.00 -0.005
  6810.00 -0.005
  6820.00 -0.005
  6830.00 -0.005
  6840.00 -0.005
  6850.00 -0.005
  6860.00 -0.005
  6870.00 -0.005
  6880.00 -0.005
  6890.00 -0.010
  6900.00 -0.025
  6910.00 -0.005
  6920.00 -0.005
  6930.00 -0.005
  6940.00 -0.005
  6950.00 -0.005
  6960.00 -0.005
  6970.00 0.000
  6980.00 -0.005
  6990.00 -0.005
  7000.00 -0.005
  7010.00 -0.005
  7020.00 -0.005
  7030.00 -0.005
  7040.00 -0.005
  7050.00 -0.005
  7060.00 -0.005
  7070.00 -0.005
  7080.00 -0.005
  7090.00 -0.005
  7100.00 -0.005
  7110.00 -0.005
  7120.00 -0.005
  7130.00 -0.005
  7140.00 -0.005
  7150.00 -0.005
  7160.00 -0.005
  7170.00 -0.005
  7180.00 -0.005
  7190.00 -0.005
  7200.00 -0.005
  7210.00 -0.005
  7220.00 -0.005
  7230.00 -0.005
  7240.00 -0.005
  7250.00 -0.005
  7260.00 -0.005
  7270.00 -0.005
  7280.00 -0.005
  7290.00 -0.005
  7300.00 -0.005
  7310.00 -0.005
  7320.00 -0.005
  7330.00 0.000
  7340.00 0.000
  7350.00 -0.005
  7360.00 -0.005
  7370.00 -0.005
  7380.00 -0.005
  7390.00 -0.005
  7400.00 -0.005
  7410.00 -0.005
  7420.00 -0.005
  7430.00 -0.005
  7440.00 -0.005
  7450.00 -0.005
  7460.00 -0.005
  7470.00 -0.005
  7480.00 -0.005
  7490.00 -0.005
  7500.00 -0.005
  7510.00 -0.005
  7520.00 -0.005
  7530.00 0.000
  7540.00 0.000
  7550.00 -0.005
  7560.00 -0.005
  7570.00 -0.005
  7580.00 -0.005
  7590.00 -0.005
  7600.00 -0.005
  7610.00 -0.005
  7620.00 -0.005
  7630.00 -0.005
  7640.00 -0.005
  7650.00 -0.005
  7660.00 -0.005
  7670.00 -0.005
  7680.00 -0.005
  7690.00 -0.005
  7700.00 0.000
  7710.00 -0.005
  7720.00 -0.005
  7730.00 -0.005
  7740.00 -0.005
  7750.00 0.000
  7760.00 -0.005
  7770.00 0.000
  7780.00 -0.005
  7790.00 -0.005
  7800.00 -0.005
  7810.00 -0.005
  7820.00 0.000
  7830.00 -0.005
  7840.00 -0.005
  7850.00 0.000
  7860.00 0.000
  7870.00 -0.005
  7880.00 -0.010
  7890.00 0.000
  7900.00 0.000
  7910.00 -0.005
  7920.00 -0.005
  7930.00 -0.005
  7940.00 -0.005
  7950.00 -0.005
  7960.00 -0.005
  7970.00 -0.005
  7980.00 -0.005
  7990.00 0.000
  8000.00 -0.005
  8010.00 -0.005
  8020.00 -0.005
  8030.00 -0.005
  8040.00 -0.005
  8050.00 0.000
  8060.00 0.000
  8070.00 -0.005
  8080.00 0.000
  8090.00 -0.005
  8100.00 -0.010
  8110.00 0.000
  8120.00 0.000
  8130.00 -0.005
  8140.00 0.000
  8150.00 0.000
  8160.00 -0.005
  8170.00 0.000
  8180.00 0.000
  8190.00 -0.005
  8200.00 0.000
  8210.00 -0.005
  8220.00 -0.005
  8230.00 0.000
  8240.00 -0.005
  8250.00 0.000
  8260.00 -0.005
  8270.00 -0.005
  8280.00 0.000
  8290.00 0.000
  8300.00 -0.005
  8310.00 0.005
  8320.00 0.000
  8330.00 -0.005
  8340.00 -0.005
  8350.00 -0.005
  8360.00 -0.005
  8370.00 -0.005
  8380.00 0.000
  8390.00 0.000
  8400.00 -0.005
  8410.00 -0.005
  8420.00 0.000
  8430.00 0.000
  8440.00 -0.005
  8450.00 -0.005
  8460.00 0.000
  8470.00 0.000
  8480.00 0.005
  8490.00 -0.005
  8500.00 0.000
  8510.00 0.000
  8520.00 0.000
  8530.00 0.005
  8540.00 0.000
  8550.00 0.000
  8560.00 0.005
  8570.00 0.000
  8580.00 0.005
  8590.00 0.000
  8600.00 0.005
  8610.00 0.035
  8620.00 -0.005
  8630.00 0.040
  8640.00 0.030
  8650.00 0.000
  8660.00 0.010
  8670.00 0.000
  8680.00 0.035
  8690.00 0.035
  8700.00 0.015
  8710.00 0.065
  8720.00 0.025
  8730.00 0.025
  8740.00 0.055
  8750.00 0.015
  8760.00 0.020
  8770.00 0.005
  8780.00 0.055
  8790.00 0.020
  8800.00 -0.005
  8810.00 0.050
  8820.00 0.050
  8830.00 0.010
  8840.00 0.045
  8850.00 -0.020
  8860.00 -0.050
  8870.00 0.005
  8880.00 0.015
  8890.00 0.010
  8900.00 0.055
  8910.00 0.050
  8920.00 0.025
  8930.00 0.020
  8940.00 0.025
  8950.00 0.000
  8960.00 0.050
  8970.00 0.065
  8980.00 0.015
  8990.00 0.030
  9000.00 0.010
  9010.00 0.020
  9020.00 0.015
  9030.00 0.020
  9040.00 0.045
  9050.00 0.055
  9060.00 0.000
  9070.00 0.080
  9080.00 -0.015
  9090.00 0.050
  9100.00 0.065
  9110.00 0.000
  9120.00 0.000
  9130.00 -0.005
  9140.00 -0.010
  9150.00 0.000
  9160.00 0.025
  9170.00 0.035
  9180.00 0.000
  9190.00 0.050
  9200.00 0.045
  9210.00 -0.010
  9220.00 0.045
  9230.00 -0.005
  9240.00 -0.015
  9250.00 0.050
  9260.00 -0.005
  9270.00 0.035
  9280.00 0.025
  9290.00 -0.005
  9300.00 0.035
  9310.00 0.075
  9320.00 0.000
  9330.00 0.020
  9340.00 0.070
  9350.00 -0.010
  9360.00 0.065
  9370.00 0.030
  9380.00 0.035
  9390.00 0.040
  9400.00 0.090
  9410.00 0.025
  9420.00 0.040
  9430.00 0.030
  9440.00 0.035
  9450.00 0.005
  9460.00 0.085
  9470.00 0.035
  9480.00 0.065
  9490.00 -0.005
  9500.00 0.055
  9510.00 0.025
  9520.00 0.040
  9530.00 0.025
  9540.00 0.030
  9550.00 0.020
  9560.00 0.030
  9570.00 0.030
  9580.00 -0.020
  9590.00 0.060
  9600.00 0.000
  9610.00 -0.030
  9620.00 0.045
  9630.00 0.050
  9640.00 0.045
  9650.00 -0.015
  9660.00 0.035
  9670.00 0.040
  9680.00 0.010
  9690.00 0.000
  9700.00 -0.015
  9710.00 -0.005
  9720.00 0.015
  9730.00 0.015
  9740.00 -0.010
  9750.00 0.035
  9760.00 0.035
  9770.00 0.045
  9780.00 0.020
  9790.00 0.070
  9800.00 0.005
  9810.00 0.000
  9820.00 0.010
  9830.00 -0.035
  9840.00 0.050
  9850.00 0.010
  9860.00 -0.020
  9870.00 0.040
  9880.00 0.010
  9890.00 0.020
  9900.00 0.050
  9910.00 0.015
  9920.00 0.035
  9930.00 0.070
  9940.00 0.035
  9950.00 0.000
  9960.00 0.055
  9970.00 0.035
  9980.00 0.035
  9990.00 -0.005
 10000.00 -0.040
 10010.00 0.020
 10020.00 0.025
 10030.00 0.020
 10040.00 0.045
 10050.00 0.005
 10060.00 -0.020
 10070.00 -0.045
 10080.00 0.050
 10090.00 0.055
 10100.00 0.015
 10110.00 0.010
 10120.00 0.010
 10130.00 0.055
 10140.00 -0.015
 10150.00 0.045
 10160.00 0.025
 10170.00 -0.025
 10180.00 0.020
 10190.00 0.000
 10200.00 0.010
 10210.00 -0.010
 10220.00 0.005
 10230.00 0.080
 10240.00 0.015
 10250.00 0.035
 10260.00 0.015
 10270.00 0.020
 10280.00 0.040
 10290.00 0.035
 10300.00 0.055
 10310.00 -0.010
 10320.00 0.015
 10330.00 0.020
 10340.00 0.065
 10350.00 0.045
 10360.00 0.075
 10370.00 -0.010
 10380.00 -0.045
 10390.00 -0.035
 10400.00 0.045
 10410.00 0.035
 10420.00 0.015
 10430.00 0.030
 10440.00 0.085
 10450.00 0.085
 10460.00 0.060
 10470.00 0.055
 10480.00 0.090
 10490.00 0.055
 10500.00 0.040
 10510.00 0.025
 10520.00 0.050
 10530.00 0.095
 10540.00 0.035
 10550.00 0.055
 10560.00 0.080
 10570.00 0.065
 10580.00 0.125
 10590.00 0.065
 10600.00 0.125
 10610.00 0.075
 10620.00 0.075
 10630.00 0.125
 10640.00 0.045
 10650.00 0.120
 10660.00 0.005
 10670.00 0.020
 10680.00 0.045
 10690.00 0.015
 10700.00 0.060
 10710.00 0.060
 10720.00 0.055
 10730.00 0.025
 10740.00 0.005
 10750.00 0.050
 10760.00 0.040
 10770.00 0.040
 10780.00 0.005
 10790.00 0.040
 10800.00 -0.005
 10810.00 0.065
 10820.00 0.055
 10830.00 0.050
 10840.00 0.045
 10850.00 0.065
 10860.00 0.105
 10870.00 0.125
 10880.00 0.080
 10890.00 0.010
 10900.00 -0.010
 10910.00 0.070
 10920.00 0.040
 10930.00 0.060
 10940.00 0.110
 10950.00 0.045
 10960.00 0.000
 10970.00 0.105
 10980.00 0.035
 10990.00 0.090
 11000.00 0.050
 11010.00 0.035
 11020.00 0.075
 11030.00 0.020
 11040.00 0.050
 11050.00 0.035
 11060.00 0.020
 11070.00 -0.015
 11080.00 0.115
 11090.00 -0.025
 11100.00 0.030
 11110.00 0.070
 11120.00 0.115
 11130.00 0.075
 11140.00 0.015
 11150.00 0.060
 11160.00 0.080
 11170.00 0.065
 11180.00 0.060
 11190.00 0.040
 11200.00 0.060
 11210.00 0.030
 11220.00 0.005
 11230.00 0.090
 11240.00 0.050
 11250.00 0.025
 11260.00 -0.045
 11270.00 0.100
 11280.00 0.105
 11290.00 0.165
 11300.00 0.105
 11310.00 0.120
 11320.00 0.060
 11330.00 -0.015
 11340.00 -0.070
 11350.00 -0.090
 11360.00 0.055
 11370.00 0.045
 11380.00 0.075
 11390.00 0.115
 11400.00 0.100
 11410.00 0.050
 11420.00 0.045
 11430.00 0.060
 11440.00 0.035
 11450.00 0.105
 11460.00 0.120
 11470.00 0.100
 11480.00 0.120
 11490.00 0.085
 11500.00 0.085
 11510.00 0.055
 11520.00 0.070
 11530.00 0.160
 11540.00 0.060
 11550.00 0.070
 11560.00 0.035
 11570.00 0.065
 11580.00 -0.040
 11590.00 -0.070
 11600.00 -0.025
 11610.00 0.030
 11620.00 -0.015
 11630.00 0.080
 11640.00 0.055
 11650.00 0.035
 11660.00 0.050
 11670.00 0.065
 11680.00 0.040
 11690.00 0.035
 11700.00 -0.030
 11710.00 0.020
 11720.00 0.070
 11730.00 0.055
 11740.00 0.060
 11750.00 0.050
 11760.00 0.045
 11770.00 -0.015
 11780.00 0.040
 11790.00 0.090
 11800.00 0.065
 11810.00 0.100
 11820.00 0.115
 11830.00 0.025
 11840.00 0.060
 11850.00 0.000
 11860.00 0.060
 11870.00 -0.015
 11880.00 -0.085
 11890.00 -0.160
 11900.00 -0.170
 11910.00 0.055
 11920.00 0.070
 11930.00 0.025
 11940.00 0.020
 11950.00 0.075
 11960.00 0.105
 11970.00 0.085
 11980.00 0.060
 11990.00 0.015
 12000.00 0.050
